[
  {
    "trial": 1,
    "trial_type": "SOBOL",
    "ref_model": [
      0.4554177187383175,
      0.2146394345909357
    ],
    "comp_model": [
      0.6805514352396131,
      0.390935386531055
    ],
    "ref_rgb": [
      0.7277088593691587,
      0.4107711735479206,
      0.6073197172954679
    ],
    "comp_rgb": [
      0.8402757176198066,
      0.3617212494646808,
      0.6954676932655275
    ],
    "stimuli_rgb": [
      [
        0.7277088593691587,
        0.4107711735479206,
        0.6073197172954679
      ],
      [
        0.7277088593691587,
        0.4107711735479206,
        0.6073197172954679
      ],
      [
        0.8402757176198066,
        0.3617212494646808,
        0.6954676932655275
      ]
    ],
    "comparison_index": 2,
    "response": 0,
    "correct": false,
    "response_time": 0.9819214344024658
  },
  {
    "trial": 2,
    "trial_type": "SOBOL",
    "ref_model": [
      -0.30503339134156704,
      -0.6301972065120935
    ],
    "comp_model": [
      -0.41018166653811927,
      -0.9194567665457725
    ],
    "ref_rgb": [
      0.3474833043292165,
      0.5940002527148012,
      0.18490139674395323
    ],
    "comp_rgb": [
      0.29490916673094036,
      0.631472272404587,
      0.04027161672711377
    ],
    "stimuli_rgb": [
      [
        0.3474833043292165,
        0.5940002527148012,
        0.18490139674395323
      ],
      [
        0.29490916673094036,
        0.631472272404587,
        0.04027161672711377
      ],
      [
        0.3474833043292165,
        0.5940002527148012,
        0.18490139674395323
      ]
    ],
    "comparison_index": 1,
    "response": 1,
    "correct": true,
    "response_time": 0.3229351043701172
  },
  {
    "trial": 3,
    "trial_type": "SOBOL",
    "ref_model": [
      -0.5427158884704113,
      0.513769956305623
    ],
    "comp_model": [
      -0.45619859639555216,
      0.5843529280275106
    ],
    "ref_rgb": [
      0.22864205576479435,
      0.5521708294978677,
      0.7568849781528115
    ],
    "comp_rgb": [
      0.2719007018022239,
      0.5331218528659615,
      0.7921764640137553
    ],
    "stimuli_rgb": [
      [
        0.2719007018022239,
        0.5331218528659615,
        0.7921764640137553
      ],
      [
        0.22864205576479435,
        0.5521708294978677,
        0.7568849781528115
      ],
      [
        0.22864205576479435,
        0.5521708294978677,
        0.7568849781528115
      ]
    ],
    "comparison_index": 0,
    "response": 2,
    "correct": false,
    "response_time": 0.12996125221252441
  },
  {
    "trial": 4,
    "trial_type": "SOBOL",
    "ref_model": [
      0.6892018187791109,
      -0.07861966080963612
    ],
    "comp_model": [
      0.4449061155319214,
      -0.18715919759124516
    ],
    "ref_rgb": [
      0.8446009093895555,
      0.39336120503574956,
      0.46069016959518194
    ],
    "comp_rgb": [
      0.7224530577659607,
      0.4407610889447749,
      0.4064204012043774
    ],
    "stimuli_rgb": [
      [
        0.8446009093895555,
        0.39336120503574956,
        0.46069016959518194
      ],
      [
        0.7224530577659607,
        0.4407610889447749,
        0.4064204012043774
      ],
      [
        0.8446009093895555,
        0.39336120503574956,
        0.46069016959518194
      ]
    ],
    "comparison_index": 1,
    "response": 1,
    "correct": true,
    "response_time": 0.3251984119415283
  },
  {
    "trial": 5,
    "trial_type": "SOBOL",
    "ref_model": [
      0.92528061196208,
      0.7722777891904116
    ],
    "comp_model": [
      0.9249992471188306,
      0.7368342734873294
    ],
    "ref_rgb": [
      0.96264030598104,
      0.29505061318338616,
      0.8861388945952058
    ],
    "comp_rgb": [
      0.9624996235594153,
      0.29759096545809094,
      0.8684171367436647
    ],
    "stimuli_rgb": [
      [
        0.96264030598104,
        0.29505061318338616,
        0.8861388945952058
      ],
      [
        0.96264030598104,
        0.29505061318338616,
        0.8861388945952058
      ],
      [
        0.9624996235594153,
        0.29759096545809094,
        0.8684171367436647
      ]
    ],
    "comparison_index": 2,
    "response": null,
    "correct": false,
    "response_time": null
  },
  {
    "trial": 6,
    "trial_type": "SOBOL",
    "ref_model": [
      -0.8374001290649176,
      -0.3206478226929903
    ],
    "comp_model": [
      -0.6573994552716613,
      -0.17228192780166862
    ],
    "ref_rgb": [
      0.08129993546754122,
      0.6588599850666707,
      0.33967608865350485
    ],
    "comp_rgb": [
      0.17130027236416934,
      0.6191215132985842,
      0.4138590360991657
    ],
    "stimuli_rgb": [
      [
        0.08129993546754122,
        0.6588599850666707,
        0.33967608865350485
      ],
      [
        0.08129993546754122,
        0.6588599850666707,
        0.33967608865350485
      ],
      [
        0.17130027236416934,
        0.6191215132985842,
        0.4138590360991657
      ]
    ],
    "comparison_index": 2,
    "response": 2,
    "correct": true,
    "response_time": 0.12040233612060547
  },
  {
    "trial": 7,
    "trial_type": "SOBOL",
    "ref_model": [
      -0.0728471539914608,
      0.4405373875051737
    ],
    "comp_model": [
      -0.23450981676578522,
      0.2290613563731313
    ],
    "ref_rgb": [
      0.4635764230042696,
      0.4808507910451669,
      0.7202686937525868
    ],
    "comp_rgb": [
      0.3827450916171074,
      0.5220463996408972,
      0.6145306781865656
    ],
    "stimuli_rgb": [
      [
        0.4635764230042696,
        0.4808507910451669,
        0.7202686937525868
      ],
      [
        0.3827450916171074,
        0.5220463996408972,
        0.6145306781865656
      ],
      [
        0.4635764230042696,
        0.4808507910451669,
        0.7202686937525868
      ]
    ],
    "comparison_index": 1,
    "response": 1,
    "correct": true,
    "response_time": 0.04483628273010254
  },
  {
    "trial": 8,
    "trial_type": "SOBOL",
    "ref_model": [
      0.1568444985896349,
      -0.9038243535906076
    ],
    "comp_model": [
      0.17599488254636525,
      -0.6544329192489386
    ],
    "ref_rgb": [
      0.5784222492948174,
      0.5380847941772723,
      0.04808782320469618
    ],
    "comp_rgb": [
      0.5879974412731827,
      0.5174154665121737,
      0.17278354037553068
    ],
    "stimuli_rgb": [
      [
        0.5784222492948174,
        0.5380847941772723,
        0.04808782320469618
      ],
      [
        0.5784222492948174,
        0.5380847941772723,
        0.04808782320469618
      ],
      [
        0.5879974412731827,
        0.5174154665121737,
        0.17278354037553068
      ]
    ],
    "comparison_index": 2,
    "response": 2,
    "correct": true,
    "response_time": 0.4843783378601074
  },
  {
    "trial": 9,
    "trial_type": "SOBOL",
    "ref_model": [
      0.12298072874546051,
      0.649054566398263
    ],
    "comp_model": [
      -0.07643623035401104,
      0.7371265361085534
    ],
    "ref_rgb": [
      0.5614903643727303,
      0.4343028151350986,
      0.8245272831991315
    ],
    "comp_rgb": [
      0.4617818848229945,
      0.4605606273256373,
      0.8685632680542767
    ],
    "stimuli_rgb": [
      [
        0.5614903643727303,
        0.4343028151350986,
        0.8245272831991315
      ],
      [
        0.5614903643727303,
        0.4343028151350986,
        0.8245272831991315
      ],
      [
        0.4617818848229945,
        0.4605606273256373,
        0.8685632680542767
      ]
    ],
    "comparison_index": 2,
    "response": 2,
    "correct": true,
    "response_time": 0.1132357120513916
  },
  {
    "trial": 10,
    "trial_type": "SOBOL",
    "ref_model": [
      -0.14836503006517887,
      -0.19358004070818424
    ],
    "comp_model": [
      -0.08794242702424526,
      -0.24456738121807575
    ],
    "ref_rgb": [
      0.42581748496741056,
      0.537771789283325,
      0.4032099796459079
    ],
    "comp_rgb": [
      0.45602878648787737,
      0.5315261637802916,
      0.3777163093909621
    ],
    "stimuli_rgb": [
      [
        0.45602878648787737,
        0.5315261637802916,
        0.3777163093909621
      ],
      [
        0.42581748496741056,
        0.537771789283325,
        0.4032099796459079
      ],
      [
        0.42581748496741056,
        0.537771789283325,
        0.4032099796459079
      ]
    ],
    "comparison_index": 0,
    "response": 0,
    "correct": true,
    "response_time": 0.35353755950927734
  }
]