[
  {
    "trial": 1,
    "trial_type": "SOBOL",
    "ref_model": [
      0.6534878127276897,
      0.09220798872411251
    ],
    "comp_model": [
      -0.5044707488268614,
      0.9438996575772762
    ],
    "ref_rgb": [
      0.8267439063638449,
      0.3871508347924766,
      0.5461039943620563
    ],
    "comp_rgb": [
      0.2477646255865693,
      0.5156731225162351,
      0.9719498287886381
    ],
    "stimuli_rgb": [
      [
        0.8267439063638449,
        0.3871508347924766,
        0.5461039943620563
      ],
      [
        0.8267439063638449,
        0.3871508347924766,
        0.5461039943620563
      ],
      [
        0.2477646255865693,
        0.5156731225162351,
        0.9719498287886381
      ]
    ],
    "comparison_index": 2,
    "response": null,
    "correct": false,
    "response_time": null
  },
  {
    "trial": 2,
    "trial_type": "SOBOL",
    "ref_model": [
      -0.847086364403367,
      -0.7381975781172514
    ],
    "comp_model": [
      0.7921266052871943,
      -0.22360501624643803
    ],
    "ref_rgb": [
      0.07645681779831648,
      0.689824149851029,
      0.1309012109413743
    ],
    "comp_rgb": [
      0.8960633026435971,
      0.3868137647990476,
      0.388197491876781
    ],
    "stimuli_rgb": [
      [
        0.07645681779831648,
        0.689824149851029,
        0.1309012109413743
      ],
      [
        0.8960633026435971,
        0.3868137647990476,
        0.388197491876781
      ],
      [
        0.07645681779831648,
        0.689824149851029,
        0.1309012109413743
      ]
    ],
    "comparison_index": 1,
    "response": 2,
    "correct": false,
    "response_time": 9.608268737792969e-05
  },
  {
    "trial": 3,
    "trial_type": "SOBOL",
    "ref_model": [
      -0.4890560768544674,
      0.5587100349366665
    ],
    "comp_model": [
      -0.14746872894465923,
      0.2553823981434107
    ],
    "ref_rgb": [
      0.2554719615727663,
      0.5402744030115629,
      0.7793550174683332
    ],
    "comp_rgb": [
      0.4262656355276704,
      0.5060273809413101,
      0.6276911990717053
    ],
    "stimuli_rgb": [
      [
        0.2554719615727663,
        0.5402744030115629,
        0.7793550174683332
      ],
      [
        0.2554719615727663,
        0.5402744030115629,
        0.7793550174683332
      ],
      [
        0.4262656355276704,
        0.5060273809413101,
        0.6276911990717053
      ]
    ],
    "comparison_index": 2,
    "response": 2,
    "correct": true,
    "response_time": 0.7660717964172363
  },
  {
    "trial": 4,
    "trial_type": "SOBOL",
    "ref_model": [
      0.010293705388903618,
      -0.1422106996178627
    ],
    "comp_model": [
      0.43036956526339054,
      -0.5390315353870392
    ],
    "ref_rgb": [
      0.5051468526944518,
      0.508333595723591,
      0.42889465019106865
    ],
    "comp_rgb": [
      0.7151847826316953,
      0.46789221694184974,
      0.2304842323064804
    ],
    "stimuli_rgb": [
      [
        0.5051468526944518,
        0.508333595723591,
        0.42889465019106865
      ],
      [
        0.7151847826316953,
        0.46789221694184974,
        0.2304842323064804
      ],
      [
        0.5051468526944518,
        0.508333595723591,
        0.42889465019106865
      ]
    ],
    "comparison_index": 1,
    "response": 1,
    "correct": true,
    "response_time": 0.0747079849243164
  },
  {
    "trial": 5,
    "trial_type": "SOBOL",
    "ref_model": [
      0.34410932287573814,
      0.9875858165323734
    ],
    "comp_model": [
      0.6435522735118866,
      -0.7727425508201122
    ],
    "ref_rgb": [
      0.6720546614378691,
      0.3744864310370075,
      0.9937929082661867
    ],
    "comp_rgb": [
      0.8217761367559433,
      0.44964419366502345,
      0.11362872458994389
    ],
    "stimuli_rgb": [
      [
        0.8217761367559433,
        0.44964419366502345,
        0.11362872458994389
      ],
      [
        0.6720546614378691,
        0.3744864310370075,
        0.9937929082661867
      ],
      [
        0.6720546614378691,
        0.3744864310370075,
        0.9937929082661867
      ]
    ],
    "comparison_index": 0,
    "response": 0,
    "correct": true,
    "response_time": 0.11534786224365234
  }
]