[
  {
    "trial": 1,
    "trial_type": "SOBOL",
    "ref_model": [
      -0.5213050749152899,
      -0.7618634589016438
    ],
    "comp_model": [
      -0.3851366814225912,
      -0.786465803720057
    ],
    "ref_rgb": [
      0.23934746254235506,
      0.6384667292417538,
      0.11906827054917812
    ],
    "comp_rgb": [
      0.3074316592887044,
      0.6180359680593407,
      0.10676709813997148
    ],
    "stimuli_rgb": [
      [
        0.23934746254235506,
        0.6384667292417538,
        0.11906827054917812
      ],
      [
        0.3074316592887044,
        0.6180359680593407,
        0.10676709813997148
      ],
      [
        0.23934746254235506,
        0.6384667292417538,
        0.11906827054917812
      ]
    ],
    "comparison_index": 1,
    "response": null,
    "correct": false,
    "response_time": null
  },
  {
    "trial": 2,
    "trial_type": "SOBOL",
    "ref_model": [
      0.8558465875685215,
      0.9858233015984297
    ],
    "comp_model": [
      0.587898608110845,
      1.0
    ],
    "ref_rgb": [
      0.9279232937842607,
      0.29132186261461807,
      0.9929116507992148
    ],
    "comp_rgb": [
      0.7939493040554225,
      0.3339343907620179,
      1.0
    ],
    "stimuli_rgb": [
      [
        0.9279232937842607,
        0.29132186261461807,
        0.9929116507992148
      ],
      [
        0.7939493040554225,
        0.3339343907620179,
        1.0
      ],
      [
        0.9279232937842607,
        0.29132186261461807,
        0.9929116507992148
      ]
    ],
    "comparison_index": 1,
    "response": null,
    "correct": false,
    "response_time": null
  },
  {
    "trial": 3,
    "trial_type": "SOBOL",
    "ref_model": [
      0.15454506315290928,
      -0.14973654225468636
    ],
    "comp_model": [
      0.41003336310386657,
      -0.42097063902765514
    ],
    "ref_rgb": [
      0.5772725315764546,
      0.48538541351649855,
      0.4251317288726568
    ],
    "comp_rgb": [
      0.7050166815519333,
      0.4628927967284432,
      0.28951468048617246
    ],
    "stimuli_rgb": [
      [
        0.5772725315764546,
        0.48538541351649855,
        0.4251317288726568
      ],
      [
        0.5772725315764546,
        0.48538541351649855,
        0.4251317288726568
      ],
      [
        0.7050166815519333,
        0.4628927967284432,
        0.28951468048617246
      ]
    ],
    "comparison_index": 2,
    "response": null,
    "correct": false,
    "response_time": null
  },
  {
    "trial": 4,
    "trial_type": "SOBOL",
    "ref_model": [
      -0.476512860506773,
      0.09769749455153942
    ],
    "comp_model": [
      -0.5638911617919803,
      0.11588241066783667
    ],
    "ref_rgb": [
      0.2617435697466135,
      0.5706795421961552,
      0.5488487472757697
    ],
    "comp_rgb": [
      0.21805441910400986,
      0.5836210604792577,
      0.5579412053339183
    ],
    "stimuli_rgb": [
      [
        0.2617435697466135,
        0.5706795421961552,
        0.5488487472757697
      ],
      [
        0.21805441910400986,
        0.5836210604792577,
        0.5579412053339183
      ],
      [
        0.2617435697466135,
        0.5706795421961552,
        0.5488487472757697
      ]
    ],
    "comparison_index": 1,
    "response": 2,
    "correct": false,
    "response_time": 0.7753946781158447
  },
  {
    "trial": 5,
    "trial_type": "SOBOL",
    "ref_model": [
      -0.09051563404500484,
      -0.3844955824315548
    ],
    "comp_model": [
      -0.24563648458570242,
      -0.2807365333661437
    ],
    "ref_rgb": [
      0.4547421829774976,
      0.5417932893485486,
      0.3077522087842226
    ],
    "comp_rgb": [
      0.3771817577071488,
      0.559737541628428,
      0.35963173331692816
    ],
    "stimuli_rgb": [
      [
        0.4547421829774976,
        0.5417932893485486,
        0.3077522087842226
      ],
      [
        0.4547421829774976,
        0.5417932893485486,
        0.3077522087842226
      ],
      [
        0.3771817577071488,
        0.559737541628428,
        0.35963173331692816
      ]
    ],
    "comparison_index": 2,
    "response": 1,
    "correct": false,
    "response_time": 0.16950201988220215
  },
  {
    "trial": 6,
    "trial_type": "SOBOL",
    "ref_model": [
      0.2861473895609379,
      0.3641641642898321
    ],
    "comp_model": [
      0.31051406264305115,
      0.15733761955052616
    ],
    "ref_rgb": [
      0.6430736947804689,
      0.4277973018663108,
      0.6820820821449161
    ],
    "comp_rgb": [
      0.6552570313215256,
      0.4383881720061526,
      0.578668809775263
    ],
    "stimuli_rgb": [
      [
        0.6430736947804689,
        0.4277973018663108,
        0.6820820821449161
      ],
      [
        0.6430736947804689,
        0.4277973018663108,
        0.6820820821449161
      ],
      [
        0.6552570313215256,
        0.4383881720061526,
        0.578668809775263
      ]
    ],
    "comparison_index": 2,
    "response": null,
    "correct": false,
    "response_time": null
  },
  {
    "trial": 7,
    "trial_type": "SOBOL",
    "ref_model": [
      0.7100899461656809,
      -0.528107937425375
    ],
    "comp_model": [
      0.6603922715410591,
      -0.3276850840076804
    ],
    "ref_rgb": [
      0.8550449730828404,
      0.42159706300883787,
      0.2359460312873125
    ],
    "comp_rgb": [
      0.8301961357705295,
      0.41557968019253827,
      0.3361574579961598
    ],
    "stimuli_rgb": [
      [
        0.8550449730828404,
        0.42159706300883787,
        0.2359460312873125
      ],
      [
        0.8301961357705295,
        0.41557968019253827,
        0.3361574579961598
      ],
      [
        0.8550449730828404,
        0.42159706300883787,
        0.2359460312873125
      ]
    ],
    "comparison_index": 1,
    "response": null,
    "correct": false,
    "response_time": null
  },
  {
    "trial": 8,
    "trial_type": "SOBOL",
    "ref_model": [
      -0.9204793386161327,
      0.7202990856021643
    ],
    "comp_model": [
      -0.7013533238321543,
      0.6406826378777624
    ],
    "ref_rgb": [
      0.03976033069193363,
      0.5991185490872242,
      0.8601495428010821
    ],
    "comp_rgb": [
      0.14932333808392284,
      0.5690578479871504,
      0.8203413189388812
    ],
    "stimuli_rgb": [
      [
        0.03976033069193363,
        0.5991185490872242,
        0.8601495428010821
      ],
      [
        0.03976033069193363,
        0.5991185490872242,
        0.8601495428010821
      ],
      [
        0.14932333808392284,
        0.5690578479871504,
        0.8203413189388812
      ]
    ],
    "comparison_index": 2,
    "response": null,
    "correct": false,
    "response_time": null
  },
  {
    "trial": 9,
    "trial_type": "SOBOL",
    "ref_model": [
      -0.821707546710968,
      -0.09193872474133968
    ],
    "comp_model": [
      -0.848074970021844,
      -0.274714982509613
    ],
    "ref_rgb": [
      0.08914622664451599,
      0.640209085736806,
      0.45403063762933016
    ],
    "comp_rgb": [
      0.07596251498907802,
      0.6573645760012993,
      0.3626425087451935
    ],
    "stimuli_rgb": [
      [
        0.08914622664451599,
        0.640209085736806,
        0.45403063762933016
      ],
      [
        0.07596251498907802,
        0.6573645760012993,
        0.3626425087451935
      ],
      [
        0.08914622664451599,
        0.640209085736806,
        0.45403063762933016
      ]
    ],
    "comparison_index": 1,
    "response": null,
    "correct": false,
    "response_time": null
  },
  {
    "trial": 10,
    "trial_type": "SOBOL",
    "ref_model": [
      0.5477228295058012,
      0.15965046733617783
    ],
    "comp_model": [
      0.7048472901806235,
      0.29448656290769576
    ],
    "ref_rgb": [
      0.7738614147529006,
      0.3996180989629319,
      0.5798252336680889
    ],
    "comp_rgb": [
      0.8524236450903118,
      0.36455512576302257,
      0.6472432814538479
    ],
    "stimuli_rgb": [
      [
        0.7738614147529006,
        0.3996180989629319,
        0.5798252336680889
      ],
      [
        0.8524236450903118,
        0.36455512576302257,
        0.6472432814538479
      ],
      [
        0.7738614147529006,
        0.3996180989629319,
        0.5798252336680889
      ]
    ],
    "comparison_index": 1,
    "response": null,
    "correct": false,
    "response_time": null
  },
  {
    "trial": 11,
    "trial_type": "SOBOL",
    "ref_model": [
      0.4404154270887375,
      -0.9485637154430151
    ],
    "comp_model": [
      0.22395627796649933,
      -1.0
    ],
    "ref_rgb": [
      0.7202077135443687,
      0.49508056588623883,
      0.02571814227849245
    ],
    "comp_rgb": [
      0.6119781389832497,
      0.5339308697151299,
      0.0
    ],
    "stimuli_rgb": [
      [
        0.7202077135443687,
        0.49508056588623883,
        0.02571814227849245
      ],
      [
        0.6119781389832497,
        0.5339308697151299,
        0.0
      ],
      [
        0.7202077135443687,
        0.49508056588623883,
        0.02571814227849245
      ]
    ],
    "comparison_index": 1,
    "response": null,
    "correct": false,
    "response_time": null
  },
  {
    "trial": 12,
    "trial_type": "SOBOL",
    "ref_model": [
      -0.18292117305099964,
      0.8027727529406548
    ],
    "comp_model": [
      -0.1358886485919356,
      0.9533720970153808
    ],
    "ref_rgb": [
      0.4085394134745002,
      0.47327149276760927,
      0.9013863764703274
    ],
    "comp_rgb": [
      0.4320556757040322,
      0.455017271755083,
      0.9766860485076905
    ],
    "stimuli_rgb": [
      [
        0.4320556757040322,
        0.455017271755083,
        0.9766860485076905
      ],
      [
        0.4085394134745002,
        0.47327149276760927,
        0.9013863764703274
      ],
      [
        0.4085394134745002,
        0.47327149276760927,
        0.9013863764703274
      ]
    ],
    "comparison_index": 0,
    "response": null,
    "correct": false,
    "response_time": null
  },
  {
    "trial": 13,
    "trial_type": "SOBOL",
    "ref_model": [
      -0.25005123019218445,
      -0.7145765703171492
    ],
    "comp_model": [
      0.020564188249409143,
      -0.4619785461574793
    ],
    "ref_rgb": [
      0.3749743849039078,
      0.5909902667544804,
      0.14271171484142542
    ],
    "comp_rgb": [
      0.5102820941247046,
      0.5291676617593469,
      0.2690107269212604
    ],
    "stimuli_rgb": [
      [
        0.3749743849039078,
        0.5909902667544804,
        0.14271171484142542
      ],
      [
        0.3749743849039078,
        0.5909902667544804,
        0.14271171484142542
      ],
      [
        0.5102820941247046,
        0.5291676617593469,
        0.2690107269212604
      ]
    ],
    "comparison_index": 2,
    "response": null,
    "correct": false,
    "response_time": null
  }
]