[
  {
    "trial": 1,
    "model_coords": [
      -0.844675101339817,
      0.8967482764273882
    ],
    "stimuli_rgb": [
      [
        0.07766244933009148,
        0.9483741382136941,
        0.5
      ],
      [
        0.07766244933009148,
        0.9483741382136941,
        0.5
      ],
      [
        0.08299952402176314,
        0.9980884785365378,
        0.5
      ]
    ],
    "correct_index": 2,
    "response": 1,
    "correct": false,
    "response_time": 0.8956811913720242,
    "trial_type": "SOBOL",
    "interaction_type": "simulated"
  },
  {
    "trial": 2,
    "model_coords": [
      0.34593621641397476,
      -0.29732109047472477
    ],
    "stimuli_rgb": [
      [
        0.6729681082069874,
        0.3513394547626376,
        0.5
      ],
      [
        0.6548772151366962,
        0.3047270144926916,
        0.5
      ],
      [
        0.6729681082069874,
        0.3513394547626376,
        0.5
      ]
    ],
    "correct_index": 1,
    "response": 1,
    "correct": true,
    "response_time": 0.6555247109936273,
    "trial_type": "SOBOL",
    "interaction_type": "simulated"
  },
  {
    "trial": 3,
    "model_coords": [
      0.6834248341619968,
      0.07332833297550678
    ],
    "stimuli_rgb": [
      [
        0.8417124170809984,
        0.5366641664877534,
        0.5
      ],
      [
        0.8417124170809984,
        0.5366641664877534,
        0.5
      ],
      [
        0.7950242774670331,
        0.5545587919207396,
        0.5
      ]
    ],
    "correct_index": 2,
    "response": 2,
    "correct": true,
    "response_time": 0.522399005185429,
    "trial_type": "SOBOL",
    "interaction_type": "manual"
  },
  {
    "trial": 4,
    "model_coords": [
      -0.1807713620364666,
      -0.7315952125936747
    ],
    "stimuli_rgb": [
      [
        0.4096143189817667,
        0.13420239370316267,
        0.5
      ],
      [
        0.3720569797604556,
        0.10119563271976162,
        0.5
      ],
      [
        0.4096143189817667,
        0.13420239370316267,
        0.5
      ]
    ],
    "correct_index": 1,
    "response": 1,
    "correct": true,
    "response_time": 0.7852399421813643,
    "trial_type": "SOBOL",
    "interaction_type": "simulated"
  },
  {
    "trial": 5,
    "model_coords": [
      -0.4971086084842682,
      0.46673595160245895
    ],
    "stimuli_rgb": [
      [
        0.2514456957578659,
        0.7333679758012295,
        0.5
      ],
      [
        0.2514456957578659,
        0.7333679758012295,
        0.5
      ],
      [
        0.29435871001915404,
        0.7077072430172562,
        0.5
      ]
    ],
    "correct_index": 2,
    "response": 0,
    "correct": false,
    "response_time": 0.6087913494429282,
    "trial_type": "SOBOL",
    "interaction_type": "simulated"
  },
  {
    "trial": 6,
    "model_coords": [
      0.9997770935297012,
      -0.870856661349535
    ],
    "stimuli_rgb": [
      [
        0.9998885467648506,
        0.0645716693252325,
        0.5
      ],
      [
        0.9998885467648506,
        0.0645716693252325,
        0.5
      ],
      [
        0.9668731146183238,
        0.027021952413142647,
        0.5
      ]
    ],
    "correct_index": 2,
    "response": 2,
    "correct": true,
    "response_time": 0.5283477958393927,
    "trial_type": "SOBOL",
    "interaction_type": "manual"
  },
  {
    "trial": 7,
    "model_coords": [
      0.03727417811751366,
      0.5006246045231819
    ],
    "stimuli_rgb": [
      [
        0.563971310608468,
        0.7292218220280423,
        0.5
      ],
      [
        0.5186370890587568,
        0.750312302261591,
        0.5
      ],
      [
        0.5186370890587568,
        0.750312302261591,
        0.5
      ]
    ],
    "correct_index": 0,
    "response": 0,
    "correct": true,
    "response_time": 0.7034938315835106,
    "trial_type": "SOBOL",
    "interaction_type": "simulated"
  },
  {
    "trial": 8,
    "model_coords": [
      -0.536028552800417,
      -0.16266778483986855
    ],
    "stimuli_rgb": [
      [
        0.18595199565008613,
        0.43818266186232857,
        0.5
      ],
      [
        0.23198572359979153,
        0.4186661075800657,
        0.5
      ],
      [
        0.23198572359979153,
        0.4186661075800657,
        0.5
      ]
    ],
    "correct_index": 0,
    "response": 0,
    "correct": true,
    "response_time": 0.6744332703455519,
    "trial_type": "SOBOL",
    "interaction_type": "simulated"
  },
  {
    "trial": 9,
    "model_coords": [
      -0.69456772133708,
      0.13964473083615303
    ],
    "stimuli_rgb": [
      [
        0.15271613933146,
        0.5698223654180765,
        0.5
      ],
      [
        0.17390602798356236,
        0.6151102072623453,
        0.5
      ],
      [
        0.15271613933146,
        0.5698223654180765,
        0.5
      ]
    ],
    "correct_index": 1,
    "response": 2,
    "correct": false,
    "response_time": 0.8409684744846468,
    "trial_type": "SOBOL",
    "interaction_type": "manual"
  },
  {
    "trial": 10,
    "model_coords": [
      0.19331112876534462,
      -0.539851576089859
    ],
    "stimuli_rgb": [
      [
        0.5966555643826723,
        0.2300742119550705,
        0.5
      ],
      [
        0.5966555643826723,
        0.2300742119550705,
        0.5
      ],
      [
        0.5871519663135574,
        0.18098570389319601,
        0.5
      ]
    ],
    "correct_index": 2,
    "response": 2,
    "correct": true,
    "response_time": 0.9551575236110428,
    "trial_type": "SOBOL",
    "interaction_type": "simulated"
  },
  {
    "trial": 11,
    "model_coords": [
      0.7774580791592598,
      0.8317136205732822
    ],
    "stimuli_rgb": [
      [
        0.920094957108293,
        0.8769186642395435,
        0.5
      ],
      [
        0.8887290395796299,
        0.9158568102866411,
        0.5
      ],
      [
        0.8887290395796299,
        0.9158568102866411,
        0.5
      ]
    ],
    "correct_index": 0,
    "response": 0,
    "correct": true,
    "response_time": 0.9243600638694252,
    "trial_type": "SOBOL",
    "interaction_type": "simulated"
  },
  {
    "trial": 12,
    "model_coords": [
      -0.28009939938783646,
      -0.4898581951856613
    ],
    "stimuli_rgb": [
      [
        0.35995030030608177,
        0.25507090240716934,
        0.5
      ],
      [
        0.3251815977426837,
        0.21913850307094418,
        0.5
      ],
      [
        0.35995030030608177,
        0.25507090240716934,
        0.5
      ]
    ],
    "correct_index": 1,
    "response": 1,
    "correct": true,
    "response_time": 0.9839824775155708,
    "trial_type": "SOBOL",
    "interaction_type": "manual"
  },
  {
    "trial": 13,
    "model_coords": [
      -0.08863939717411995,
      0.6926657985895872
    ],
    "stimuli_rgb": [
      [
        0.4872934254248356,
        0.8075951865305052,
        0.5
      ],
      [
        0.45568030141294,
        0.8463328992947936,
        0.5
      ],
      [
        0.45568030141294,
        0.8463328992947936,
        0.5
      ]
    ],
    "correct_index": 0,
    "response": 0,
    "correct": true,
    "response_time": 0.8324454249644722,
    "trial_type": "SOBOL",
    "interaction_type": "simulated"
  },
  {
    "trial": 14,
    "model_coords": [
      0.5859825871884823,
      -0.09715247713029385
    ],
    "stimuli_rgb": [
      [
        0.7929912935942411,
        0.4514237614348531,
        0.5
      ],
      [
        0.7929912935942411,
        0.4514237614348531,
        0.5
      ],
      [
        0.7462889186619378,
        0.4692812017800583,
        0.5
      ]
    ],
    "correct_index": 2,
    "response": 2,
    "correct": true,
    "response_time": 0.734615452999815,
    "trial_type": "SOBOL",
    "interaction_type": "simulated"
  },
  {
    "trial": 15,
    "model_coords": [
      0.3768518418073654,
      0.27353510074317455
    ],
    "stimuli_rgb": [
      [
        0.6884259209036827,
        0.6367675503715873,
        0.5
      ],
      [
        0.6884259209036827,
        0.6367675503715873,
        0.5
      ],
      [
        0.7303012709092167,
        0.6094462205738994,
        0.5
      ]
    ],
    "correct_index": 2,
    "response": 0,
    "correct": false,
    "response_time": 0.5242136661807842,
    "trial_type": "SOBOL",
    "interaction_type": "manual"
  },
  {
    "trial": 16,
    "model_coords": [
      -0.878093421459198,
      -0.93570058606565
    ],
    "stimuli_rgb": [
      [
        0.10409607130651877,
        0.0574222287682149,
        0.5
      ],
      [
        0.060953289270401,
        0.03214970696717501,
        0.5
      ],
      [
        0.060953289270401,
        0.03214970696717501,
        0.5
      ]
    ],
    "correct_index": 0,
    "response": 0,
    "correct": true,
    "response_time": 0.8101402320518936,
    "trial_type": "SOBOL",
    "interaction_type": "simulated"
  },
  {
    "trial": 17,
    "model_coords": [
      -0.9793819542974234,
      0.36808686703443527
    ],
    "stimuli_rgb": [
      [
        0.0174523018336592,
        0.7335305385586324,
        0.5
      ],
      [
        0.010309022851288319,
        0.6840434335172176,
        0.5
      ],
      [
        0.010309022851288319,
        0.6840434335172176,
        0.5
      ]
    ],
    "correct_index": 0,
    "response": 0,
    "correct": true,
    "response_time": 0.984358272633119,
    "trial_type": "SOBOL",
    "interaction_type": "simulated"
  },
  {
    "trial": 18,
    "model_coords": [
      0.47673229314386845,
      -0.9676289148628712
    ],
    "stimuli_rgb": [
      [
        0.7879469926602858,
        0.009724915573977366,
        0.5
      ],
      [
        0.7383661465719342,
        0.016185542568564415,
        0.5
      ],
      [
        0.7383661465719342,
        0.016185542568564415,
        0.5
      ]
    ],
    "correct_index": 0,
    "response": 0,
    "correct": true,
    "response_time": 0.8946984732205693,
    "trial_type": "SOBOL",
    "interaction_type": "manual"
  },
  {
    "trial": 19,
    "model_coords": [
      0.5485920961946249,
      0.6618365123867989
    ],
    "stimuli_rgb": [
      [
        0.8166289371122142,
        0.8575251445430734,
        0.5
      ],
      [
        0.7742960480973125,
        0.8309182561933994,
        0.5
      ],
      [
        0.7742960480973125,
        0.8309182561933994,
        0.5
      ]
    ],
    "correct_index": 0,
    "response": 0,
    "correct": true,
    "response_time": 0.5624835935355063,
    "trial_type": "SOBOL",
    "interaction_type": "simulated"
  },
  {
    "trial": 20,
    "model_coords": [
      -0.04985702969133854,
      -0.003454778343439102
    ],
    "stimuli_rgb": [
      [
        0.47507148515433073,
        0.49827261082828045,
        0.5
      ],
      [
        0.47507148515433073,
        0.49827261082828045,
        0.5
      ],
      [
        0.4312478488479299,
        0.522345186529362,
        0.5
      ]
    ],
    "correct_index": 2,
    "response": 0,
    "correct": false,
    "response_time": 0.6769434104243939,
    "trial_type": "SOBOL",
    "interaction_type": "simulated"
  },
  {
    "trial": 21,
    "model_coords": [
      -0.366316108033061,
      0.8001667577773333
    ],
    "stimuli_rgb": [
      [
        0.3548956868961801,
        0.9325165841349615,
        0.5
      ],
      [
        0.3168419459834695,
        0.9000833788886666,
        0.5
      ],
      [
        0.3168419459834695,
        0.9000833788886666,
        0.5
      ]
    ],
    "correct_index": 0,
    "response": 0,
    "correct": true,
    "response_time": 0.9236341653868068,
    "trial_type": "SOBOL",
    "interaction_type": "manual"
  }
]