[
  {
    "trial": 1,
    "model_coords": [
      0.1478906273841858,
      0.22571054100990295
    ],
    "stimuli_rgb": [
      [
        0.5739453136920929,
        0.6128552705049515,
        0.5
      ],
      [
        0.5707515767976652,
        0.5629573743103304,
        0.5
      ],
      [
        0.5739453136920929,
        0.6128552705049515,
        0.5
      ]
    ],
    "correct_index": 1,
    "response": 1,
    "correct": true,
    "response_time": 0.6266207300689719,
    "trial_type": "SOBOL",
    "interaction_type": "simulated"
  },
  {
    "trial": 2,
    "model_coords": [
      -0.6241479963064194,
      -0.5836362838745117
    ],
    "stimuli_rgb": [
      [
        0.1762253829567496,
        0.2567935389387437,
        0.5
      ],
      [
        0.1879260018467903,
        0.20818185806274414,
        0.5
      ],
      [
        0.1879260018467903,
        0.20818185806274414,
        0.5
      ]
    ],
    "correct_index": 0,
    "response": 0,
    "correct": true,
    "response_time": 0.7687702394077697,
    "trial_type": "SOBOL",
    "interaction_type": "simulated"
  },
  {
    "trial": 3,
    "model_coords": [
      -0.47600287199020386,
      0.688191581517458
    ],
    "stimuli_rgb": [
      [
        0.26199856400489807,
        0.844095790758729,
        0.5
      ],
      [
        0.22162846517901225,
        0.814595703965836,
        0.5
      ],
      [
        0.26199856400489807,
        0.844095790758729,
        0.5
      ]
    ],
    "correct_index": 1,
    "response": 1,
    "correct": true,
    "response_time": 0.8632359076752634,
    "trial_type": "SOBOL",
    "interaction_type": "manual"
  },
  {
    "trial": 4,
    "model_coords": [
      0.7648822218179703,
      -0.11151645705103874
    ],
    "stimuli_rgb": [
      [
        0.8824411109089851,
        0.44424177147448063,
        0.5
      ],
      [
        0.8824411109089851,
        0.44424177147448063,
        0.5
      ],
      [
        0.8996504722932256,
        0.3972967197571099,
        0.5
      ]
    ],
    "correct_index": 2,
    "response": 2,
    "correct": true,
    "response_time": 0.9760795141096201,
    "trial_type": "SOBOL",
    "interaction_type": "simulated"
  },
  {
    "trial": 5,
    "model_coords": [
      0.7325117066502571,
      0.8375001419335604
    ],
    "stimuli_rgb": [
      [
        0.8662558533251286,
        0.9187500709667802,
        0.5
      ],
      [
        0.8662558533251286,
        0.9187500709667802,
        0.5
      ],
      [
        0.8702350986060639,
        0.9685914755115375,
        0.5
      ]
    ],
    "correct_index": 2,
    "response": 2,
    "correct": true,
    "response_time": 0.8522549436433413,
    "trial_type": "SOBOL",
    "interaction_type": "simulated"
  },
  {
    "trial": 6,
    "model_coords": [
      -0.006132341921329498,
      -0.47960553877055645
    ],
    "stimuli_rgb": [
      [
        0.49693382903933525,
        0.2601972306147218,
        0.5
      ],
      [
        0.4601463202943565,
        0.22633457861671502,
        0.5
      ],
      [
        0.49693382903933525,
        0.2601972306147218,
        0.5
      ]
    ],
    "correct_index": 1,
    "response": 1,
    "correct": true,
    "response_time": 0.9061549625818892,
    "trial_type": "SOBOL",
    "interaction_type": "manual"
  },
  {
    "trial": 7,
    "model_coords": [
      -0.904336504638195,
      0.37309364043176174
    ],
    "stimuli_rgb": [
      [
        0.025701085312001604,
        0.6417111894841323,
        0.5
      ],
      [
        0.04783174768090248,
        0.6865468202158809,
        0.5
      ],
      [
        0.04783174768090248,
        0.6865468202158809,
        0.5
      ]
    ],
    "correct_index": 0,
    "response": 0,
    "correct": true,
    "response_time": 0.5768502184386877,
    "trial_type": "SOBOL",
    "interaction_type": "simulated"
  },
  {
    "trial": 8,
    "model_coords": [
      0.36557915061712265,
      -0.9497388545423746
    ],
    "stimuli_rgb": [
      [
        0.6827895753085613,
        0.025130572728812695,
        0.5
      ],
      [
        0.7193067869565628,
        0.0,
        0.5
      ],
      [
        0.6827895753085613,
        0.025130572728812695,
        0.5
      ]
    ],
    "correct_index": 1,
    "response": 1,
    "correct": true,
    "response_time": 0.9028897501553961,
    "trial_type": "SOBOL",
    "interaction_type": "simulated"
  },
  {
    "trial": 9,
    "model_coords": [
      0.4536396376788616,
      0.596043249592185
    ],
    "stimuli_rgb": [
      [
        0.6801758584644028,
        0.7800121561605994,
        0.5
      ],
      [
        0.7268198188394308,
        0.7980216247960925,
        0.5
      ],
      [
        0.7268198188394308,
        0.7980216247960925,
        0.5
      ]
    ],
    "correct_index": 0,
    "response": 0,
    "correct": true,
    "response_time": 0.8935773962264972,
    "trial_type": "SOBOL",
    "interaction_type": "manual"
  },
  {
    "trial": 10,
    "model_coords": [
      -0.8055073358118534,
      -0.2039689514786005
    ],
    "stimuli_rgb": [
      [
        0.0972463320940733,
        0.39801552426069975,
        0.5
      ],
      [
        0.07555170182463727,
        0.3529672943568237,
        0.5
      ],
      [
        0.0972463320940733,
        0.39801552426069975,
        0.5
      ]
    ],
    "correct_index": 1,
    "response": 2,
    "correct": false,
    "response_time": 0.5721077356340958,
    "trial_type": "SOBOL",
    "interaction_type": "simulated"
  },
  {
    "trial": 11,
    "model_coords": [
      -0.15684138610959053,
      0.06816399283707142
    ],
    "stimuli_rgb": [
      [
        0.42157930694520473,
        0.5340819964185357,
        0.5
      ],
      [
        0.4714782543692793,
        0.5309047262113545,
        0.5
      ],
      [
        0.42157930694520473,
        0.5340819964185357,
        0.5
      ]
    ],
    "correct_index": 1,
    "response": 1,
    "correct": true,
    "response_time": 0.9854996634742705,
    "trial_type": "SOBOL",
    "interaction_type": "simulated"
  },
  {
    "trial": 12,
    "model_coords": [
      0.5710869692265987,
      -0.7414889018982649
    ],
    "stimuli_rgb": [
      [
        0.7855434846132994,
        0.12925554905086756,
        0.5
      ],
      [
        0.8238365274042349,
        0.16140586590485184,
        0.5
      ],
      [
        0.7855434846132994,
        0.12925554905086756,
        0.5
      ]
    ],
    "correct_index": 1,
    "response": 1,
    "correct": true,
    "response_time": 0.5538914079795685,
    "trial_type": "SOBOL",
    "interaction_type": "manual"
  },
  {
    "trial": 13,
    "model_coords": [
      0.9159002341330051,
      0.4656987227499485
    ],
    "stimuli_rgb": [
      [
        0.9579501170665026,
        0.7328493613749743,
        0.5
      ],
      [
        0.9579501170665026,
        0.7328493613749743,
        0.5
      ],
      [
        1.0,
        0.757987449276593,
        0.5
      ]
    ],
    "correct_index": 2,
    "response": 1,
    "correct": false,
    "response_time": 0.6190782424032819,
    "trial_type": "SOBOL",
    "interaction_type": "simulated"
  },
  {
    "trial": 14,
    "model_coords": [
      -0.3141546659171581,
      -0.8578041456639767
    ],
    "stimuli_rgb": [
      [
        0.33622102500949547,
        0.12064677169617327,
        0.5
      ],
      [
        0.34292266704142094,
        0.07109792716801167,
        0.5
      ],
      [
        0.34292266704142094,
        0.07109792716801167,
        0.5
      ]
    ],
    "correct_index": 0,
    "response": 0,
    "correct": true,
    "response_time": 0.8907235604512498,
    "trial_type": "SOBOL",
    "interaction_type": "simulated"
  },
  {
    "trial": 15,
    "model_coords": [
      -0.7128760777413845,
      0.9955663830041885
    ],
    "stimuli_rgb": [
      [
        0.14356196112930775,
        0.9977831915020943,
        0.5
      ],
      [
        0.14356196112930775,
        0.9977831915020943,
        0.5
      ],
      [
        0.14731418216355213,
        1.0,
        0.5
      ]
    ],
    "correct_index": 2,
    "response": 2,
    "correct": true,
    "response_time": 0.7333317342214274,
    "trial_type": "SOBOL",
    "interaction_type": "manual"
  },
  {
    "trial": 16,
    "model_coords": [
      0.04850836470723152,
      -0.3222115784883499
    ],
    "stimuli_rgb": [
      [
        0.5156980290009774,
        0.2896317276697469,
        0.5
      ],
      [
        0.5242541823536158,
        0.33889421075582504,
        0.5
      ],
      [
        0.5242541823536158,
        0.33889421075582504,
        0.5
      ]
    ],
    "correct_index": 0,
    "response": 0,
    "correct": true,
    "response_time": 0.9659305181792435,
    "trial_type": "SOBOL",
    "interaction_type": "simulated"
  },
  {
    "trial": 17,
    "model_coords": [
      0.07457147538661957,
      0.9094063211232424
    ],
    "stimuli_rgb": [
      [
        0.5343226124147691,
        0.9047910389018112,
        0.5
      ],
      [
        0.5372857376933098,
        0.9547031605616212,
        0.5
      ],
      [
        0.5372857376933098,
        0.9547031605616212,
        0.5
      ]
    ],
    "correct_index": 0,
    "response": 0,
    "correct": true,
    "response_time": 0.9627512438527399,
    "trial_type": "SOBOL",
    "interaction_type": "simulated"
  },
  {
    "trial": 18,
    "model_coords": [
      -0.6602037847042084,
      -0.26733203046023846
    ],
    "stimuli_rgb": [
      [
        0.1512820534253661,
        0.3199287854363596,
        0.5
      ],
      [
        0.1698981076478958,
        0.36633398476988077,
        0.5
      ],
      [
        0.1698981076478958,
        0.36633398476988077,
        0.5
      ]
    ],
    "correct_index": 0,
    "response": 0,
    "correct": true,
    "response_time": 0.6770412278722489,
    "trial_type": "SOBOL",
    "interaction_type": "manual"
  },
  {
    "trial": 19,
    "model_coords": [
      -0.3088439851999283,
      0.37957203947007656
    ],
    "stimuli_rgb": [
      [
        0.33660939637552834,
        0.738975083725839,
        0.5
      ],
      [
        0.34557800740003586,
        0.6897860197350383,
        0.5
      ],
      [
        0.34557800740003586,
        0.6897860197350383,
        0.5
      ]
    ],
    "correct_index": 0,
    "response": 0,
    "correct": true,
    "response_time": 0.5068048499389872,
    "trial_type": "SOBOL",
    "interaction_type": "simulated"
  },
  {
    "trial": 20,
    "model_coords": [
      0.9570983946323395,
      -0.8028969410806894
    ],
    "stimuli_rgb": [
      [
        0.9785491973161697,
        0.09855152945965528,
        0.5
      ],
      [
        1.0,
        0.12288405718442957,
        0.5
      ],
      [
        0.9785491973161697,
        0.09855152945965528,
        0.5
      ]
    ],
    "correct_index": 1,
    "response": 1,
    "correct": true,
    "response_time": 0.6659320011375496,
    "trial_type": "SOBOL",
    "interaction_type": "simulated"
  },
  {
    "trial": 21,
    "model_coords": [
      0.5519843026995659,
      0.02881765365600586
    ],
    "stimuli_rgb": [
      [
        0.7759921513497829,
        0.5144088268280029,
        0.5
      ],
      [
        0.7759921513497829,
        0.5144088268280029,
        0.5
      ],
      [
        0.8010355560266185,
        0.47113264536299554,
        0.5
      ]
    ],
    "correct_index": 2,
    "response": 2,
    "correct": true,
    "response_time": 0.8009302369352262,
    "trial_type": "SOBOL",
    "interaction_type": "manual"
  }
]